File: dados/DRX.txt
/////////////////////////////////////////////////////////////////////////////////
/// Profile Data Ascii Dump (XRD)                                             ///
/////////////////////////////////////////////////////////////////////////////////

  Group     : Standard
  Data      : Bianca
  File Name : Bianca.RAW

# Profile Datafile
          comment             =
          date & time         = 04-11-19 10:14:46

# Measurement Condition
    X-ray tube
          target              = Cu
          voltage             = 40.0 (kV)
          current             = 20.0 (mA)
    Slits
          divergence slit     = 1.00000 (deg)
          scatter slit        = 1.00000 (deg)
          receiving slit      = 0.30000 (mm)
    Scanning
          drive axis          = Theta-2Theta
          scan range          =    5.000 -   95.000
          scan mode           = Continuous Scan
          scan speed          =   2.0000 (deg/min)
          sampling pitch      =   0.0200 (deg)
          preset time         =   0.60 (sec)

# Data      [ Total No. = 4501 ]
  <2Theta>   <   I   >
     5.0000        96
     5.0800        98
     5.1600       106
     5.2400        98
     5.3200        98
     5.4000        94
     5.4800        84
     5.5600        92
     5.6400        88
     5.7200        82
     5.8000        86
     5.8800        86
     5.9600        92
     6.0400        78
     6.1200        72
     6.2000        96
     6.2800        78
     6.3600        76
     6.4400        86
     6.5200        70
     6.6000        78
     6.6800        94
     6.7600        72
     6.8400        94
     6.9200        98
     7.0000        82
     7.0800        76
     7.1600        92
     7.2400        76
     7.3200        86
     7.4000        80
     7.4800        70
     7.5600        86
     7.6400        74
     7.7200        76
     7.8000        80
     7.8800        94
     7.9600        74
     8.0400        84
     8.1200        70
     8.2000        78
     8.2800        84
     8.3600        64
     8.4400        76
     8.5200       112
     8.6000        96
     8.6800        98
     8.7600        98
     8.8400        90
     8.9200       106
     9.0000        88
     9.0800        82
     9.1600        88
     9.2400       108
     9.3200        96
     9.4000        90
     9.4800        78
     9.5600        86
     9.6400       100
     9.7200        94
     9.8000        98
     9.8800        96
     9.9600       110
    10.0400        90
    10.1200        96
    10.2000       100
    10.2800       100
    10.3600        92
    10.4400        88
    10.5200       106
    10.6000       104
    10.6800       102
    10.7600       108
    10.8400       128
    10.9200       102
    11.0000       102
    11.0800       104
    11.1600       110
    11.2400       110
    11.3200       118
    11.4000       114
    11.4800       126
    11.5600       106
    11.6400       120
    11.7200       120
    11.8000       126
    11.8800       120
    11.9600       130
    12.0400       142
    12.1200       134
    12.2000       128
    12.2800       122
    12.3600       130
    12.4400       142
    12.5200       166
    12.6000       146
    12.6800       154
    12.7600       150
    12.8400       174
    12.9200       190
    13.0000       160
    13.0800       174
    13.1600       188
    13.2400       218
    13.3200       196
    13.4000       228
    13.4800       238
    13.5600       244
    13.6400       270
    13.7200       286
    13.8000       292
    13.8800       334
    13.9600       328
    14.0400       360
    14.1200       328
    14.2000       378
    14.2800       378
    14.3600       392
    14.4400       388
    14.5200       414
    14.6000       370
    14.6800       392
    14.7600       444
    14.8400       408
    14.9200       402
    15.0000       394
    15.0800       402
    15.1600       370
    15.2400       398
    15.3200       450
    15.4000       390
    15.4800       376
    15.5600       392
    15.6400       424
    15.7200       412
    15.8000       374
    15.8800       412
    15.9600       396
    16.0400       390
    16.1200       384
    16.2000       380
    16.2800       370
    16.3600       400
    16.4400       390
    16.5200       362
    16.6000       352
    16.6800       304
    16.7600       338
    16.8400       318
    16.9200       338
    17.0000       324
    17.0800       264
    17.1600       268
    17.2400       248
    17.3200       262
    17.4000       268
    17.4800       238
    17.5600       246
    17.6400       208
    17.7200       206
    17.8000       240
    17.8800       212
    17.9600       228
    18.0400       216
    18.1200       214
    18.2000       192
    18.2800       228
    18.3600       220
    18.4400       232
    18.5200       252
    18.6000       212
    18.6800       216
    18.7600       230
    18.8400       266
    18.9200       234
    19.0000       252
    19.0800       250
    19.1600       260
    19.2400       258
    19.3200       258
    19.4000       274
    19.4800       302
    19.5600       290
    19.6400       296
    19.7200       310
    19.8000       314
    19.8800       360
    19.9600       390
    20.0400       364
    20.1200       380
    20.2000       376
    20.2800       410
    20.3600       388
    20.4400       420
    20.5200       398
    20.6000       386
    20.6800       402
    20.7600       398
    20.8400       426
    20.9200       486
    21.0000       448
    21.0800       512
    21.1600       550
    21.2400       604
    21.3200       546
    21.4000       686
    21.4800       732
    21.5600       754
    21.6400       802
    21.7200       908
    21.8000       956
    21.8800       968
    21.9600       984
    22.0400      1094
    22.1200      1096
    22.2000      1116
    22.2800      1042
    22.3600      1056
    22.4400      1092
    22.5200      1048
    22.6000       958
    22.6800       936
    22.7600       846
    22.8400       738
    22.9200       708
    23.0000       634
    23.0800       604
    23.1600       572
    23.2400       520
    23.3200       446
    23.4000       460
    23.4800       414
    23.5600       378
    23.6400       338
    23.7200       324
    23.8000       348
    23.8800       312
    23.9600       314
    24.0400       256
    24.1200       258
    24.2000       244
    24.2800       246
    24.3600       244
    24.4400       234
    24.5200       242
    24.6000       214
    24.6800       218
    24.7600       202
    24.8400       218
    24.9200       186
    25.0000       198
    25.0800       214
    25.1600       192
    25.2400       188
    25.3200       190
    25.4000       178
    25.4800       198
    25.5600       166
    25.6400       166
    25.7200       190
    25.8000       154
    25.8800       164
    25.9600       172
    26.0400       148
    26.1200       148
    26.2000       166
    26.2800       176
    26.3600       160
    26.4400       148
    26.5200       148
    26.6000       160
    26.6800       168
    26.7600       146
    26.8400       154
    26.9200       140
    27.0000       134
    27.0800       154
    27.1600       168
    27.2400       154
    27.3200       168
    27.4000       146
    27.4800       124
    27.5600       158
    27.6400       150
    27.7200       166
    27.8000       154
    27.8800       146
    27.9600       158
    28.0400       162
    28.1200       152
    28.2000       132
    28.2800       168
    28.3600       166
    28.4400       146
    28.5200       158
    28.6000       140
    28.6800       170
    28.7600       152
    28.8400       158
    28.9200       152
    29.0000       156
    29.0800       136
    29.1600       174
    29.2400       166
    29.3200       152
    29.4000       148
    29.4800       142
    29.5600       148
    29.6400       152
    29.7200       148
    29.8000       140
    29.8800       164
    29.9600       142
    30.0400       154
    30.1200       146
    30.2000       166
    30.2800       158
    30.3600       144
    30.4400       148
    30.5200       136
    30.6000       160
    30.6800       146
    30.7600       152
    30.8400       156
    30.9200       148
    31.0000       132
    31.0800       142
    31.1600       134
    31.2400       134
    31.3200       110
    31.4000       110
    31.4800       142
    31.5600       132
    31.6400       122
    31.7200       116
    31.8000       150
    31.8800       146
    31.9600       118
    32.0400       126
    32.1200       116
    32.2000       116
    32.2800       122
    32.3600       132
    32.4400       118
    32.5200       138
    32.6000       112
    32.6800       126
    32.7600       140
    32.8400       158
    32.9200       154
    33.0000       148
    33.0800       158
    33.1600       160
    33.2400       172
    33.3200       166
    33.4000       174
    33.4800       178
    33.5600       186
    33.6400       178
    33.7200       192
    33.8000       218
    33.8800       202
    33.9600       202
    34.0400       246
    34.1200       228
    34.2000       248
    34.2800       254
    34.3600       222
    34.4400       204
    34.5200       222
    34.6000       216
    34.6800       186
    34.7600       188
    34.8400       164
    34.9200       146
    35.0000       174
    35.0800       164
    35.1600       148
    35.2400       152
    35.3200       152
    35.4000       126
    35.4800       166
    35.5600       134
    35.6400       152
    35.7200       142
    35.8000       156
    35.8800       132
    35.9600       116
    36.0400       126
    36.1200       120
    36.2000       136
    36.2800       122
    36.3600       148
    36.4400       128
    36.5200       142
    36.6000       136
    36.6800       118
    36.7600       130
    36.8400       148
    36.9200       148
    37.0000       138
    37.0800       128
    37.1600       124
    37.2400       146
    37.3200       164
    37.4000       128
    37.4800       132
    37.5600       136
    37.6400       132
    37.7200       174
    37.8000       198
    37.8800       188
    37.9600       152
    38.0400       142
    38.1200       110
    38.2000       158
    38.2800       120
    38.3600       134
    38.4400       156
    38.5200       130
    38.6000       136
    38.6800       144
    38.7600       120
    38.8400       104
    38.9200       142
    39.0000       106
    39.0800       146
    39.1600       104
    39.2400       118
    39.3200       128
    39.4000       122
    39.4800       114
    39.5600       114
    39.6400       142
    39.7200       106
    39.8000       100
    39.8800       132
    39.9600       114
    40.0400       120
    40.1200       118
    40.2000       104
    40.2800       120
    40.3600       138
    40.4400       116
    40.5200       110
    40.6000       108
    40.6800       114
    40.7600       112
    40.8400       126
    40.9200       126
    41.0000       134
    41.0800       120
    41.1600       128
    41.2400       116
    41.3200       124
    41.4000       132
    41.4800       130
    41.5600       126
    41.6400       150
    41.7200       136
    41.8000       130
    41.8800       114
    41.9600       128
    42.0400       120
    42.1200       122
    42.2000       132
    42.2800       102
    42.3600       126
    42.4400       110
    42.5200       130
    42.6000       128
    42.6800        98
    42.7600       112
    42.8400       118
    42.9200       102
    43.0000       112
    43.0800       132
    43.1600       120
    43.2400       102
    43.3200       104
    43.4000       114
    43.4800       114
    43.5600       128
    43.6400       138
    43.7200       198
    43.8000       238
    43.8800       480
    43.9600      1556
    44.0400      2406
    44.1200      1402
    44.2000       680
    44.2800       230
    44.3600       142
    44.4400       146
    44.5200       124
    44.6000       114
    44.6800       150
    44.7600       136
    44.8400       124
    44.9200       124
    45.0000       112
    45.0800       104
    45.1600       112
    45.2400       110
    45.3200       118
    45.4000       140
    45.4800       102
    45.5600       106
    45.6400       112
    45.7200        96
    45.8000        98
    45.8800        96
    45.9600        88
    46.0400       112
    46.1200        98
    46.2000       116
    46.2800       100
    46.3600        96
    46.4400        96
    46.5200       120
    46.6000       104
    46.6800        88
    46.7600        94
    46.8400        84
    46.9200       110
    47.0000        98
    47.0800       100
    47.1600        94
    47.2400        88
    47.3200       104
    47.4000        82
    47.4800        86
    47.5600        92
    47.6400        84
    47.7200        88
    47.8000        94
    47.8800       100
    47.9600        96
    48.0400        94
    48.1200        78
    48.2000        72
    48.2800        96
    48.3600       114
    48.4400        82
    48.5200        76
    48.6000        82
    48.6800        82
    48.7600        98
    48.8400        84
    48.9200        82
    49.0000        84
    49.0800        88
    49.1600        82
    49.2400        80
    49.3200        82
    49.4000        84
    49.4800        80
    49.5600        70
    49.6400        70
    49.7200        78
    49.8000        70
    49.8800        70
    49.9600        90
    50.0400        78
    50.1200        74
    50.2000        84
    50.2800        68
    50.3600        76
    50.4400        84
    50.5200        70
    50.6000        84
    50.6800        62
    50.7600        80
    50.8400        72
    50.9200        78
    51.0000        62
    51.0800        66
    51.1600        78
    51.2400        62
    51.3200        60
    51.4000        66
    51.4800        52
    51.5600        76
    51.6400        60
    51.7200        62
    51.8000        52
    51.8800        66
    51.9600        52
    52.0400        62
    52.1200        74
    52.2000        56
    52.2800        62
    52.3600        66
    52.4400        60
    52.5200        64
    52.6000        56
    52.6800        40
    52.7600        64
    52.8400        56
    52.9200        66
    53.0000        74
    53.0800        76
    53.1600        62
    53.2400        62
    53.3200        60
    53.4000        52
    53.4800        56
    53.5600        54
    53.6400        64
    53.7200        54
    53.8000        52
    53.8800        54
    53.9600        58
    54.0400        62
    54.1200        48
    54.2000        42
    54.2800        72
    54.3600        50
    54.4400        42
    54.5200        60
    54.6000        50
    54.6800        44
    54.7600        60
    54.8400        58
    54.9200        66
    55.0000        60
    55.0800        54
    55.1600        54
    55.2400        50
    55.3200        60
    55.4000        48
    55.4800        52
    55.5600        46
    55.6400        62
    55.7200        56
    55.8000        54
    55.8800        58
    55.9600        50
    56.0400        58
    56.1200        52
    56.2000        58
    56.2800        58
    56.3600        40
    56.4400        44
    56.5200        50
    56.6000        46
    56.6800        46
    56.7600        52
    56.8400        56
    56.9200        54
    57.0000        44
    57.0800        48
    57.1600        44
    57.2400        56
    57.3200        48
    57.4000        52
    57.4800        52
    57.5600        56
    57.6400        62
    57.7200        46
    57.8000        42
    57.8800        62
    57.9600        42
    58.0400        50
    58.1200        40
    58.2000        44
    58.2800        58
    58.3600        50
    58.4400        34
    58.5200        36
    58.6000        44
    58.6800        54
    58.7600        48
    58.8400        52
    58.9200        52
    59.0000        54
    59.0800        48
    59.1600        66
    59.2400        50
    59.3200        56
    59.4000        52
    59.4800        48
    59.5600        44
    59.6400        40
    59.7200        54
    59.8000        40
    59.8800        42
    59.9600        52
    60.0400        52
    60.1200        42
    60.2000        38
    60.2800        38
    60.3600        42
    60.4400        44
    60.5200        40
    60.6000        40
    60.6800        44
    60.7600        48
    60.8400        50
    60.9200        46
    61.0000        40
    61.0800        34
    61.1600        48
    61.2400        48
    61.3200        46
    61.4000        48
    61.4800        44
    61.5600        50
    61.6400        56
    61.7200        32
    61.8000        36
    61.8800        34
    61.9600        46
    62.0400        42
    62.1200        56
    62.2000        36
    62.2800        44
    62.3600        54
    62.4400        44
    62.5200        44
    62.6000        34
    62.6800        42
    62.7600        44
    62.8400        38
    62.9200        46
    63.0000        66
    63.0800        44
    63.1600        46
    63.2400        38
    63.3200        38
    63.4000        56
    63.4800        44
    63.5600        50
    63.6400        50
    63.7200        48
    63.8000        56
    63.8800        68
    63.9600        88
    64.0400        94
    64.1200       134
    64.2000       184
    64.2800       496
    64.3600      1368
    64.4400      1168
    64.5200       726
    64.6000       730
    64.6800       246
    64.7600       112
    64.8400        62
    64.9200        66
    65.0000        50
    65.0800        50
    65.1600        44
    65.2400        54
    65.3200        36
    65.4000        44
    65.4800        46
    65.5600        48
    65.6400        38
    65.7200        48
    65.8000        42
    65.8800        44
    65.9600        44
    66.0400        46
    66.1200        36
    66.2000        34
    66.2800        36
    66.3600        36
    66.4400        36
    66.5200        44
    66.6000        44
    66.6800        52
    66.7600        42
    66.8400        34
    66.9200        32
    67.0000        36
    67.0800        32
    67.1600        40
    67.2400        40
    67.3200        38
    67.4000        36
    67.4800        52
    67.5600        32
    67.6400        40
    67.7200        36
    67.8000        34
    67.8800        26
    67.9600        44
    68.0400        32
    68.1200        34
    68.2000        40
    68.2800        42
    68.3600        40
    68.4400        32
    68.5200        40
    68.6000        40
    68.6800        36
    68.7600        34
    68.8400        52
    68.9200        28
    69.0000        40
    69.0800        34
    69.1600        44
    69.2400        42
    69.3200        44
    69.4000        26
    69.4800        52
    69.5600        34
    69.6400        30
    69.7200        40
    69.8000        36
    69.8800        54
    69.9600        34
    70.0400        30
    70.1200        32
    70.2000        32
    70.2800        34
    70.3600        38
    70.4400        50
    70.5200        46
    70.6000        40
    70.6800        38
    70.7600        42
    70.8400        24
    70.9200        28
    71.0000        48
    71.0800        34
    71.1600        36
    71.2400        28
    71.3200        42
    71.4000        34
    71.4800        36
    71.5600        30
    71.6400        34
    71.7200        34
    71.8000        34
    71.8800        36
    71.9600        26
    72.0400        34
    72.1200        34
    72.2000        34
    72.2800        38
    72.3600        32
    72.4400        28
    72.5200        28
    72.6000        28
    72.6800        40
    72.7600        26
    72.8400        42
    72.9200        42
    73.0000        42
    73.0800        38
    73.1600        32
    73.2400        46
    73.3200        32
    73.4000        38
    73.4800        38
    73.5600        40
    73.6400        52
    73.7200        30
    73.8000        36
    73.8800        36
    73.9600        42
    74.0400        38
    74.1200        46
    74.2000        52
    74.2800        36
    74.3600        42
    74.4400        50
    74.5200        40
    74.6000        46
    74.6800        46
    74.7600        40
    74.8400        28
    74.9200        34
    75.0000        42
    75.0800        26
    75.1600        38
    75.2400        40
    75.3200        32
    75.4000        32
    75.4800        28
    75.5600        38
    75.6400        48
    75.7200        38
    75.8000        46
    75.8800        32
    75.9600        40
    76.0400        34
    76.1200        38
    76.2000        46
    76.2800        44
    76.3600        34
    76.4400        28
    76.5200        40
    76.6000        50
    76.6800        40
    76.7600        36
    76.8400        44
    76.9200        40
    77.0000        48
    77.0800        56
    77.1600        80
    77.2400        72
    77.3200       116
    77.4000       230
    77.4800       482
    77.5600       412
    77.6400       258
    77.7200       282
    77.8000       208
    77.8800       104
    77.9600        62
    78.0400        48
    78.1200        38
    78.2000        42
    78.2800        46
    78.3600        56
    78.4400        32
    78.5200        28
    78.6000        30
    78.6800        34
    78.7600        34
    78.8400        40
    78.9200        32
    79.0000        42
    79.0800        46
    79.1600        36
    79.2400        40
    79.3200        30
    79.4000        32
    79.4800        30
    79.5600        38
    79.6400        40
    79.7200        38
    79.8000        28
    79.8800        26
    79.9600        24
    80.0400        32
    80.1200        32
    80.2000        40
    80.2800        32
    80.3600        30
    80.4400        28
    80.5200        30
    80.6000        24
    80.6800        32
    80.7600        28
    80.8400        32
    80.9200        36
    81.0000        20
    81.0800        38
    81.1600        20
    81.2400        24
    81.3200        30
    81.4000        36
    81.4800        32
    81.5600        22
    81.6400        24
    81.7200        36
    81.8000        32
    81.8800        24
    81.9600        32
    82.0400        28
    82.1200        28
    82.2000        36
    82.2800        32
    82.3600        34
    82.4400        40
    82.5200        22
    82.6000        26
    82.6800        42
    82.7600        42
    82.8400        34
    82.9200        34
    83.0000        28
    83.0800        38
    83.1600        36
    83.2400        36
    83.3200        32
    83.4000        26
    83.4800        20
    83.5600        28
    83.6400        16
    83.7200        24
    83.8000        24
    83.8800        22
    83.9600        34
    84.0400        22
    84.1200        26
    84.2000        18
    84.2800        34
    84.3600        28
    84.4400        22
    84.5200        30
    84.6000        26
    84.6800        22
    84.7600        30
    84.8400        28
    84.9200        26
    85.0000        30
    85.0800        36
    85.1600        30
    85.2400        32
    85.3200        30
    85.4000        32
    85.4800        18
    85.5600        28
    85.6400        20
    85.7200        36
    85.8000        26
    85.8800        24
    85.9600        16
    86.0400        18
    86.1200        24
    86.2000        24
    86.2800        20
    86.3600        34
    86.4400        22
    86.5200        28
    86.6000        22
    86.6800        24
    86.7600        28
    86.8400        30
    86.9200        28
    87.0000        40
    87.0800        26
    87.1600        26
    87.2400        24
    87.3200        24
    87.4000        36
    87.4800        28
    87.5600        26
    87.6400        30
    87.7200        32
    87.8000        22
    87.8800        32
    87.9600        30
    88.0400        30
    88.1200        36
    88.2000        30
    88.2800        28
    88.3600        28
    88.4400        30
    88.5200        22
    88.6000        16
    88.6800        34
    88.7600        38
    88.8400        16
    88.9200        34
    89.0000        28
    89.0800        24
    89.1600        22
    89.2400        28
    89.3200        28
    89.4000        26
    89.4800        38
    89.5600        18
    89.6400        14
    89.7200        22
    89.8000        34
    89.8800        26
    89.9600        30
    90.0400        32
    90.1200        24
    90.2000        20
    90.2800        28
    90.3600        28
    90.4400        30
    90.5200        30
    90.6000        26
    90.6800        26
    90.7600        20
    90.8400        34
    90.9200        20
    91.0000        30
    91.0800        26
    91.1600        26
    91.2400        22
    91.3200        22
    91.4000        28
    91.4800        20
    91.5600        28
    91.6400        26
    91.7200        30
    91.8000        14
    91.8800        26
    91.9600        16
    92.0400        24
    92.1200        32
    92.2000        28
    92.2800        28
    92.3600        18
    92.4400        24
    92.5200        22
    92.6000        24
    92.6800        16
    92.7600        16
    92.8400        24
    92.9200        18
    93.0000        30
    93.0800        20
    93.1600        26
    93.2400        24
    93.3200        28
    93.4000        20
    93.4800        22
    93.5600        14
    93.6400        36
    93.7200        22
    93.8000        20
    93.8800        20
    93.9600        12
    94.0400        32
    94.1200        20
    94.2000        28
    94.2800        24
    94.3600        18
    94.4400        18
    94.5200        30
    94.6000        24
    94.6800        24
    94.7600        12
    94.8400        28
    94.9200        20
    95.0000        30